subID,part,block,trial,number,font_size,resp_RT
1,pre,0,1,7,94,0.828144342
1,pre,0,2,6,72,0.599343276
1,pre,0,3,2,120,0.465770945
1,pre,0,4,2,120,0.412831012
1,pre,0,5,3,100,0.360788603
1,pre,0,6,2,94,0.388584825
1,pre,0,7,0,72,0.433208356
1,pre,0,8,0,48,0.510430432
1,pre,0,9,2,120,0.429557644
1,pre,0,10,4,120,0.55013932
1,pre,0,11,8,120,0.652726322
1,pre,0,12,6,100,0.679429488
1,pre,0,13,6,94,0.644626681
1,pre,0,14,1,120,0.654999413
1,pre,0,15,2,48,0.618924799
1,pre,0,16,3,100,NaN
1,pre,0,17,0,72,0.49522764
1,pre,0,18,4,48,0.427669794
1,pre,0,19,8,94,0.496066608
1,pre,0,20,0,94,0.523156384
1,pre,0,21,9,48,0.561696538
1,pre,0,22,7,72,0.479504344
1,pre,0,23,8,94,0.599737078
1,pre,0,24,9,94,0.601556098
1,pre,0,25,9,100,0.482202056
1,pre,0,26,1,120,0.455710858
1,pre,0,27,5,72,0.466584916
1,pre,0,28,2,100,0.558612216
1,pre,0,29,7,48,0.763344135
1,pre,0,30,6,120,0.628668475
1,pre,0,31,7,100,0.484556989
1,pre,0,32,1,94,0.475448189
1,pre,0,33,9,72,0.468408045
1,pre,0,34,0,100,0.462057911
1,pre,0,35,1,100,0.458621222
1,pre,0,36,7,48,0.443401993
1,pre,0,37,4,100,0.451500606
1,pre,0,38,3,100,NaN
1,pre,0,39,6,48,0.425392594
1,pre,0,40,5,94,0.33873161
1,pre,0,41,8,94,0.239227903
1,pre,0,42,2,72,0.394360352
1,pre,0,43,7,48,0.471591331
1,pre,0,44,8,100,0.560886334
1,pre,0,45,1,72,0.50814878
1,pre,0,46,7,48,0.521425027
1,pre,0,47,0,120,0.468294357
1,pre,0,48,2,94,0.433412447
1,pre,0,49,0,100,0.36602719
1,pre,0,50,6,72,0.426544207
1,pre,0,51,0,72,0.359810263
1,pre,0,52,7,120,0.515255356
1,pre,0,53,3,100,NaN
1,pre,0,54,8,120,0.344841697
1,pre,0,55,9,72,0.420733409
1,pre,0,56,2,72,0.418424705
1,pre,0,57,0,94,0.732944372
1,pre,0,58,8,72,0.569288003
1,pre,0,59,0,72,0.774245588
1,pre,0,60,8,100,0.457462076
1,pre,0,61,1,120,0.501084324
1,pre,0,62,7,120,0.48066486
1,pre,0,63,4,120,0.443119483
1,pre,0,64,0,94,0.487978953
1,pre,0,65,4,72,0.469242562
1,pre,0,66,3,72,NaN
1,pre,0,67,7,120,0.329329342
1,pre,0,68,7,94,0.372038313
1,pre,0,69,9,72,0.338433691
1,pre,0,70,4,100,0.350769266
1,pre,0,71,4,94,0.345432057
1,pre,0,72,8,120,0.305452986
1,pre,0,73,4,48,0.379702718
1,pre,0,74,4,48,0.391584907
1,pre,0,75,8,94,0.47789421
1,pre,0,76,8,120,0.449625426
1,pre,0,77,2,72,0.338088172
1,pre,0,78,7,72,0.478321228
1,pre,0,79,5,120,0.456394703
1,pre,0,80,7,48,0.419472217
1,pre,0,81,2,48,0.433160415
1,pre,0,82,9,94,0.509294229
1,pre,0,83,6,94,0.442231889
1,pre,0,84,2,48,0.451832084
1,pre,0,85,4,120,0.487029035
1,pre,0,86,5,94,0.512501485
1,pre,0,87,6,120,0.537245232
1,pre,0,88,4,72,0.548916823
1,pre,0,89,4,72,0.499400908
1,pre,0,90,5,100,0.518811213
1,pre,0,91,5,120,0.543595367
1,pre,0,92,7,100,0.440261512
1,pre,0,93,8,72,0.437249786
1,pre,0,94,6,72,0.368981044
1,pre,0,95,7,48,0.510770471
1,pre,0,96,9,48,0.442260311
1,pre,0,97,1,72,0.439474251
1,pre,0,98,7,94,0.463514634
1,pre,0,99,7,94,0.460373125
1,pre,0,100,4,120,0.424474523
1,pre,0,101,2,48,0.373074525
1,pre,0,102,4,100,0.36683123
1,pre,0,103,9,94,0.378562063
1,pre,0,104,9,72,0.422745906
1,pre,0,105,1,48,0.449323055
1,pre,0,106,2,120,0.41377819
1,pre,0,107,7,120,0.40764379
1,pre,0,108,5,94,0.483502628
1,pre,0,109,4,120,0.504712777
1,pre,0,110,0,48,0.74101422
1,pre,0,111,2,120,0.509946227
1,pre,0,112,5,100,0.388386897
1,pre,0,113,7,120,0.399904734
1,pre,0,114,9,94,0.377650156
1,pre,0,115,6,100,0.403855419
1,pre,0,116,4,100,0.351204844
1,pre,0,117,8,48,0.460325869
1,pre,0,118,4,120,0.389811773
1,pre,0,119,1,100,0.399630443
1,pre,0,120,1,120,0.344178741
1,pre,0,121,0,100,0.421115568
1,pre,0,122,5,48,0.383663676
1,pre,0,123,1,48,0.354431277
1,pre,0,124,0,100,0.38196622
1,pre,0,125,1,100,0.405724436
1,pre,0,126,1,72,0.433657632
1,pre,0,127,0,94,0.460122462
1,pre,0,128,2,72,0.442299691
1,pre,0,129,1,94,0.485216178
1,pre,0,130,8,100,0.431870115
1,pre,0,131,7,48,0.569701666
1,pre,0,132,5,94,0.469510005
1,pre,0,133,2,48,0.451014347
1,pre,0,134,1,100,0.415107527
1,pre,0,135,7,120,0.422658927
1,pre,0,136,7,72,0.451306103
1,pre,0,137,8,100,0.415176699
1,pre,0,138,2,94,0.443433839
1,pre,0,139,1,48,0.404335172
1,pre,0,140,3,94,0.366020341
1,pre,0,141,7,100,0.5053795
1,pre,0,142,8,48,0.472582684
1,pre,0,143,8,100,0.418186712
1,pre,0,144,9,72,0.429403206
1,pre,0,145,7,120,0.434867801
1,pre,0,146,4,100,0.352796487
1,pre,0,147,8,72,0.363829778
1,pre,0,148,3,94,0.37233726
1,pre,0,149,9,94,0.588952053
1,pre,0,150,4,100,0.423785884
1,pre,0,151,6,72,0.369627221
1,pre,0,152,2,48,0.366399076
1,pre,0,153,4,72,0.375947906
1,pre,0,154,3,48,0.434840406
1,pre,0,155,7,48,0.400091362
1,pre,0,156,6,48,0.379800312
1,pre,0,157,1,94,0.325870053
1,pre,0,158,4,48,0.343606188
1,pre,0,159,2,120,0.462393841
1,pre,0,160,5,48,0.472073824
1,post,1,1,7,48,0.708105085
1,post,1,2,0,48,0.54268209
1,post,1,3,3,72,0.394810313
1,post,1,4,4,100,0.486463673
1,post,1,5,7,48,0.388927946
1,post,1,6,6,120,0.366037463
1,post,1,7,8,94,0.408515974
1,post,1,8,9,72,0.437738785
1,post,1,9,1,72,0.436680315
1,post,1,10,8,72,0.405960374
1,post,1,11,6,72,0.396199233
1,post,1,12,5,48,0.425204939
1,post,1,13,3,72,0.393237504
1,post,1,14,4,94,0.402528137
1,post,1,15,1,120,0.320101375
1,post,1,16,7,120,0.347761307
1,post,1,17,1,48,0.391501695
1,post,1,18,5,48,0.438122313
1,post,1,19,7,100,0.386393234
1,post,1,20,8,94,0.429877137
1,post,1,21,1,48,0.394255566
1,post,1,22,7,100,0.389998058
1,post,1,23,2,120,0.432145776
1,post,1,24,3,72,NaN
1,post,1,25,1,120,0.375548283
1,post,1,26,7,72,0.453558647
1,post,1,27,1,48,0.628641765
1,post,1,28,9,48,0.480401184
1,post,1,29,7,48,0.429943228
1,post,1,30,0,100,0.42591344
1,post,1,31,7,120,0.467332111
1,post,1,32,7,72,0.432945022
1,post,1,33,5,100,0.445574065
1,post,1,34,9,120,0.454430832
1,post,1,35,7,94,0.417607652
1,post,1,36,2,94,0.431598564
1,post,1,37,2,94,0.424612867
1,post,1,38,9,48,0.55020952
1,post,1,39,1,72,0.467999862
1,post,1,40,8,94,0.447499926
1,post,1,41,5,120,0.538656411
1,post,1,42,6,48,0.58287621
1,post,1,43,5,94,0.482956442
1,post,1,44,4,94,0.49598682
1,post,1,45,3,100,NaN
1,post,1,46,7,48,0.377384083
1,post,1,47,9,48,0.390931539
1,post,1,48,9,72,0.435042443
1,post,1,49,2,120,0.412973123
1,post,1,50,8,120,0.408707396
1,post,1,51,1,48,0.390224409
1,post,1,52,8,72,0.40403828
1,post,1,53,5,120,0.415426677
1,post,1,54,1,94,0.428194406
1,post,1,55,9,48,0.361816254
1,post,1,56,6,48,0.358860345
1,post,1,57,9,48,0.341695394
1,post,1,58,3,120,0.352442408
1,post,1,59,0,72,0.396143759
1,post,1,60,9,94,0.375376722
1,post,1,61,6,100,0.450688348
1,post,1,62,2,100,0.445080272
1,post,1,63,1,120,0.409324466
1,post,1,64,1,120,0.468878895
1,post,1,65,6,72,0.387201725
1,post,1,66,0,94,0.334145021
1,post,1,67,2,48,0.380849878
1,post,1,68,2,100,0.360973861
1,post,1,69,0,120,0.404692333
1,post,1,70,4,120,0.400557075
1,post,1,71,3,48,0.571036482
1,post,1,72,6,120,0.393912445
1,post,1,73,0,48,0.406870912
1,post,1,74,4,120,0.40197476
1,post,1,75,6,72,0.385094374
1,post,1,76,0,72,0.36484921
1,post,1,77,7,120,0.536526116
1,post,1,78,9,48,0.630052259
1,post,1,79,3,120,0.32592861
1,post,1,80,9,72,0.412814575
1,post,1,81,1,120,0.425072074
1,post,1,82,9,48,0.40425196
1,post,1,83,9,48,0.418687353
1,post,1,84,9,100,0.350531272
1,post,1,85,9,100,0.393648769
1,post,1,86,4,100,0.407291765
1,post,1,87,0,48,0.419624601
1,post,1,88,5,100,0.367313722
1,post,1,89,0,120,0.508196379
1,post,1,90,1,72,0.61709756
1,post,1,91,3,120,0.43556911
1,post,1,92,5,94,0.398509307
1,post,1,93,0,120,0.473245982
1,post,1,94,6,100,0.469286736
1,post,1,95,7,94,0.41609614
1,post,1,96,7,120,0.46124531
1,post,1,97,6,48,0.427678355
1,post,1,98,5,72,0.471689953
1,post,1,99,9,48,0.453396332
1,post,1,100,7,48,0.482989659
1,post,1,101,9,48,0.447325626
1,post,1,102,8,120,0.45995638
1,post,1,103,9,100,0.48780705
1,post,1,104,9,72,0.533028474
1,post,1,105,0,94,0.46392316
1,post,1,106,6,100,0.477523694
1,post,1,107,6,120,0.424616634
1,post,1,108,0,94,0.442463718
1,post,1,109,2,72,0.434141151
1,post,1,110,3,72,0.394018258
1,post,1,111,8,48,0.443991668
1,post,1,112,2,94,0.423358182
1,post,1,113,7,72,0.451834481
1,post,1,114,5,120,0.383581833
1,post,1,115,5,100,0.410942819
1,post,1,116,8,120,0.40496183
1,post,1,117,9,48,0.404904644
1,post,1,118,7,100,0.446565417
1,post,1,119,2,72,0.445794936
1,post,1,120,6,72,0.57070158
1,post,1,121,4,100,0.550812207
1,post,1,122,0,94,0.434619535
1,post,1,123,6,48,0.399424981
1,post,1,124,1,72,0.427821494
1,post,1,125,3,120,NaN
1,post,1,126,6,72,0.357427593
1,post,1,127,4,48,0.435136956
1,post,1,128,6,72,0.350196712
1,post,1,129,8,72,0.26760832
1,post,1,130,5,48,0.394446303
1,post,1,131,6,94,0.372550597
1,post,1,132,9,94,0.449608304
1,post,1,133,3,120,0.442362015
1,post,1,134,8,94,0.503735122
1,post,1,135,7,48,0.40524434
1,post,1,136,2,94,0.338123786
1,post,1,137,8,100,0.430887324
1,post,1,138,1,72,0.411417778
1,post,1,139,2,72,0.395018514
1,post,1,140,3,94,0.382775739
1,post,1,141,5,94,0.387411296
1,post,1,142,8,100,0.381894993
1,post,1,143,5,72,0.427347904
1,post,1,144,4,120,0.470400339
1,post,1,145,2,120,0.417102217
1,post,1,146,8,94,0.589905738
1,post,1,147,6,94,0.472880603
1,post,1,148,6,72,0.470401023
1,post,1,149,1,100,0.495974835
1,post,1,150,2,100,0.479408805
1,post,1,151,8,48,0.508717567
1,post,1,152,1,72,0.553828384
1,post,1,153,4,94,0.50071689
1,post,1,154,5,48,0.468622068
1,post,1,155,9,100,0.399910213
1,post,1,156,5,48,0.415054791
1,post,1,157,9,100,0.554583113
1,post,1,158,5,94,0.438506527
1,post,1,159,2,72,0.357339587
1,post,1,160,9,120,0.367380155